

 Wavenumbers:   820. - 50000. cm-1, ATM      1
 LEVEL PRESSURE   UPWARD FLUX   DIFDOWN FLUX  DIRDOWN FLUX  DOWNWARD FLUX   NET FLUX    HEATING RATE
          mb          W/m2          W/m2          W/m2        W/m2          W/m2       degree/day
  60   .000300       94.7003        0.0000      837.8224      837.8224     743.122108       0.00000
  59    0.1000       94.6939        0.0100      837.7137      837.7236     743.029707       7.82136
  58    0.1403       94.6915        0.0140      837.6563      837.6703     742.978780      10.66440
  57    0.1968       94.6883        0.0196      837.5614      837.5810     742.892738      12.85181
  56    0.2760       94.6839        0.0274      837.4070      837.4345     742.750531      15.15283
  55    0.3871       94.6781        0.0383      837.1641      837.2024     742.524277      17.18625
  54    0.5430       94.6704        0.0533      836.7876      836.8409     742.170486      19.15132
  53    0.7617       94.6607        0.0738      836.1942      836.2679     741.607214      21.73542
  52     1.069       94.6489        0.1018      835.2926      835.3944     740.745500      23.70315
  51     1.499       94.6357        0.1392      834.0471      834.1863     739.550660      23.43349
  50     2.102       94.6234        0.1895      832.4995      832.6890     738.065546      20.76391
  49     2.949       94.6167        0.2595      830.7483      831.0078     736.391064      16.69170
  48     4.137       94.6212        0.3566      828.8944      829.2510     734.629806      12.51559
  47     5.803       94.6380        0.4912      826.9459      827.4372     732.799195       9.27354
  46     8.139       94.6600        0.6783      824.8978      825.5761     730.916154       6.80073
  45     11.42       94.6738        0.9382      822.7006      823.6388     728.965021       5.02346
  44     16.01       94.6660        1.2987      820.2525      821.5511     726.885143       3.81765
  43     22.46       94.6184        1.7991      817.4463      819.2454     724.627048       2.95480
  42     31.51       94.4852        2.4939      814.2518      816.7456     722.260434       2.20773
  41     44.20       94.1852        3.4599      810.6480      814.1079     719.922673       1.55470
  40     62.00       93.6456        4.7899      806.4553      811.2452     717.599648       1.10138
  39     85.78       92.7654        6.5391      801.7674      808.3064     715.541012       0.73073
  38     109.5       91.7843        8.2861      797.4817      805.7678     713.983557       0.55283
  37     133.1       90.8178        9.9339      793.5510      803.4848     712.667077       0.47276
  36     156.8       89.8660       11.5056      789.8548      801.3604     711.494364       0.41585
  35     180.6       88.8383       13.1451      786.0084      799.1535     710.315147       0.41864
  34     202.8       87.8327       14.6949      782.2124      796.9073     709.074528       0.47104
  33     228.4       86.7993       16.2457      778.0467      794.2925     707.493138       0.52176
  32     252.2       85.7586       17.7708      773.4741      791.2449     705.486275       0.71235
  31     276.0       84.7256       19.2494      768.4389      787.6883     702.962664       0.89578
  30     299.8       83.6812       20.7111      762.7642      783.4754     699.794139       1.12470
  29     323.5       82.6334       22.1473      756.6288      778.7761     696.142672       1.29612
  28     347.3       81.5942       23.5430      750.2254      773.7684     692.174180       1.40865
  27     371.1       80.5676       24.8944      743.7251      768.6195     688.051931       1.46323
  26     394.9       79.5263       26.2380      736.8957      763.1337     683.607453       1.57761
  25     418.6       78.4876       27.5517      729.8721      757.4238     678.936208       1.65810
  24     442.4       77.4503       28.8383      722.6783      751.5165     674.066230       1.72864
  23     466.2       76.4108       30.1023      715.4381      745.5404     669.129620       1.75229
  22     489.9       75.3836       31.3272      708.2772      739.6044     664.220794       1.74243
  21     513.7       74.3513       32.5345      701.0441      733.5785     659.227207       1.77252
  20     537.5       73.3302       33.7061      693.8325      727.5386     654.208463       1.78145
  19     561.3       72.3187       34.8450      686.6319      721.4769     649.158278       1.79261
  18     585.0       71.2949       35.9760      679.3701      715.3461     644.051213       1.81280
  17     608.8       70.2831       37.0729      672.2525      709.3254     639.042293       1.77796
  16     632.6       69.2831       38.1368      665.2624      703.3992     634.116067       1.74861
  15     656.4       68.2750       39.1897      658.1915      697.3812     629.106191       1.77830
  14     680.1       67.2798       40.2105      651.1209      691.3314     624.051692       1.79414
  13     703.9       66.2979       41.2002      644.0582      685.2583     618.960436       1.80719
  12     727.7       65.3157       42.1737      636.8758      679.0495     613.733840       1.85523
  11     751.5       64.3349       43.1303      629.4911      672.6213     608.286405       1.93362
  10     775.2       63.3694       44.0581      621.9804      666.0385     602.669073       1.99392
   9     799.0       62.4210       44.9575      614.3441      659.3016     596.880577       2.05468
   8     822.8       61.4750       45.8436      606.6059      652.4495     590.974520       2.09641
   7     846.6       60.5392       46.7081      599.1618      645.8698     585.330688       2.00333
   6     870.4       59.6193       47.5469      592.0218      639.5687     579.949403       1.91013
   5     894.1       58.7163       48.3609      585.1438      633.5047     574.788401       1.83194
   4     917.9       57.8222       49.1591      578.4222      627.5812     569.759016       1.78522
   3     941.7       56.9433       49.9386      571.8306      621.7693     564.825927       1.75104
   2     965.5       56.0896       50.6940      565.4044      616.0985     560.008921       1.70984
   1     989.2       55.2648       51.4260      559.1384      610.5644     555.299560       1.67128
   0    1013.0       54.4749       52.1350      553.0189      605.1539     550.679038       1.64044

  Modules and versions used in this calculation:

       rrtmg_sw.1col.f90:  $Revision$                    rrtmg_sw_init.f90:  $Revision$        
     rrtmgsw_cldprop.f90:  $Revision$                  rrtmgsw_cldprmc.f90:  NOT USED          
     rrtmg_sw_reftra.f90:  $Revision$                  rrtmg_sw_spcvrt.f90:  NOT USED          
     rrtmg_sw_spcvmc.f90:  NOT USED                    rrtmgsw_setcoef.f90:  NOT USED          
     rrtmg_sw_taumol.f90:  $Revision$                  rrtmg_sw_vrtqdr.f90:  NOT USED          
                rrtatm.f:  NOT USED                             util_xxx.f:  NOT USED          
                 extra.f:  NOT USED                       rrtmg_sw_k_g.f90:  $Revision$        

