

 Wavenumbers:   820. - 50000. cm-1, ATM      1
 LEVEL PRESSURE   UPWARD FLUX   DIFDOWN FLUX  DIRDOWN FLUX  DOWNWARD FLUX   NET FLUX    HEATING RATE
          mb          W/m2          W/m2          W/m2        W/m2          W/m2       degree/day
  59    0.1000      256.5767        0.0000     1360.8491     1360.8491    1104.272458       0.00000
  58    0.1400      256.5738        0.0025     1360.7700     1360.7725    1104.198664      15.56905
  57    0.1970      256.5703        0.0061     1360.6656     1360.6716    1104.101333      14.41029
  56    0.2760      256.5663        0.0110     1360.4973     1360.5083    1103.941924      17.02880
  55    0.3870      256.5626        0.0177     1360.2162     1360.2339    1103.671312      20.57415
  54    0.5430      256.5604        0.0270     1359.7485     1359.7755    1103.215034      24.68332
  53    0.7620      256.5620        0.0396     1359.0015     1359.0411    1102.479125      28.35818
  52     1.070      256.5721        0.0559     1357.8888     1357.9447    1101.372625      30.31791
  51     1.500      256.6042        0.0777     1356.1988     1356.2765    1099.672278      33.37087
  50     2.100      256.6700        0.1066     1354.0972     1354.2038    1097.533843      30.07761
  49     2.950      256.7828        0.1463     1351.8433     1351.9896    1095.206854      23.10330
  48     4.130      256.9519        0.2012     1349.6358     1349.8369    1092.885000      16.60548
  47     5.800      257.1853        0.2770     1347.4520     1347.7289    1090.543688      11.83154
  46     8.130      257.4911        0.3817     1345.1751     1345.5568    1088.065695       8.97517
  45     11.41      257.8736        0.5262     1342.7079     1343.2341    1085.360504       6.96022
  44     16.01      258.3423        0.7249     1339.9281     1340.6530    1082.310670       5.59522
  43     22.46      258.9494        0.9965     1336.6282     1337.6247    1078.675338       4.75645
  42     31.51      259.7555        1.3663     1332.6189     1333.9852    1074.229605       4.14566
  41     44.20      260.7214        1.8703     1327.8040     1329.6743    1068.952889       3.50914
  40     62.00      261.6390        2.5578     1322.1310     1324.6888    1063.049860       2.79868
  39     85.77      261.7736        3.4618     1316.0883     1319.5501    1057.776547       1.87220
  38     109.5      261.2097        4.3489     1310.8699     1315.2188    1054.009144       1.33755
  37     133.3      260.2492        5.2106     1306.1391     1311.3497    1051.100538       1.03222
  36     157.1      258.9904        6.0549     1301.7285     1307.7833    1048.792973       0.81892
  35     180.9      257.4948        6.8793     1297.5383     1304.4176    1046.922848       0.66396
  34     204.7      255.9129        7.6749     1293.4065     1301.0814    1045.168517       0.62258
  33     228.4      254.2889        8.4453     1289.2005     1297.6458    1043.356870       0.64320
  32     252.2      252.6308        9.1881     1284.8824     1294.0705    1041.439721       0.68037
  31     276.0      250.9187        9.9070     1280.5653     1290.4723    1039.553585       0.66964
  30     299.8      249.1550       10.6017     1276.2839     1286.8856    1037.730651       0.64693
  29     323.5      247.3413       11.2714     1272.1283     1283.3997    1036.058447       0.59369
  28     347.3      245.4768       11.9231     1267.8782     1279.8012    1034.324377       0.61565
  27     371.1      243.6120       12.5459     1263.0375     1275.5833    1031.971376       0.83504
  26     394.9      241.7445       13.1435     1257.3469     1270.4903    1028.745834       1.14469
  25     418.6      239.8576       13.7206     1251.3901     1265.1108    1025.253230       1.23999
  24     442.4      237.9877       14.2671     1245.4620     1259.7291    1021.741399       1.24682
  23     466.2      236.0955       14.7960     1239.3762     1254.1721    1018.076575       1.30059
  22     489.9      234.2238       15.2968     1233.1568     1248.4536    1014.229769       1.36517
  21     513.7      232.3808       15.7690     1226.8116     1242.5805    1010.199748       1.43079
  20     537.5      230.5246       16.2244     1220.1629     1236.3873    1005.862626       1.53918
  19     561.3      228.7007       16.6525     1213.3419     1229.9944    1001.293649       1.62214
  18     585.0      226.9197       17.0528     1206.3658     1223.4185     996.498845       1.70232
  17     608.8      225.1479       17.4339     1199.1415     1216.5754     991.427465       1.79975
  16     632.6      223.4021       17.7919     1191.9457     1209.7376     986.335522       1.80705
  15     656.4      221.6927       18.1257     1184.8126     1202.9383     981.245603       1.80709
  14     680.1      220.0289       18.4349     1177.7612     1196.1961     976.167136       1.80303
  13     703.9      218.3817       18.7248     1170.7810     1189.5059     971.124170       1.78967
  12     727.7      216.7724       18.9915     1164.0452     1183.0367     966.264369       1.72467
  11     751.5      215.1986       19.2364     1157.4888     1176.7252     961.526634       1.68205
  10     775.2      213.6704       19.4590     1151.1183     1170.5773     956.906912       1.63947
   9     799.0      212.1701       19.6622     1144.8574     1164.5196     952.349557       1.61801
   8     822.8      210.7164       19.8438     1138.7985     1158.6423     947.925882       1.56989
   7     846.6      209.3104       20.0047     1132.9030     1152.9077     943.597335       1.53678
   6     870.4      207.9610       20.1450     1127.1604     1147.3054     939.344385       1.50930
   5     894.1      206.6767       20.2648     1121.5673     1141.8321     935.155407       1.48723
   4     917.9      205.4265       20.3662     1116.1582     1136.5244     931.097845       1.44057
   3     941.7      204.2186       20.4484     1110.9747     1131.4231     927.204463       1.38170
   2     965.5      203.0544       20.5118     1105.9959     1126.5077     923.453365       1.33121
   1     989.2      201.9493       20.5565     1101.1905     1121.7470     919.797728       1.29733
   0    1013.0      200.9042       20.5828     1096.5367     1117.1195     916.215320       1.27187

  Modules and versions used in this calculation:

       rrtmg_sw.1col.f90:  $Revision$                    rrtmg_sw_init.f90:  $Revision$        
     rrtmgsw_cldprop.f90:  $Revision$                  rrtmgsw_cldprmc.f90:  NOT USED          
     rrtmg_sw_reftra.f90:  $Revision$                  rrtmg_sw_spcvrt.f90:  NOT USED          
     rrtmg_sw_spcvmc.f90:  NOT USED                    rrtmgsw_setcoef.f90:  NOT USED          
     rrtmg_sw_taumol.f90:  $Revision$                  rrtmg_sw_vrtqdr.f90:  NOT USED          
                rrtatm.f:  NOT USED                             util_xxx.f:  NOT USED          
                 extra.f:  NOT USED                       rrtmg_sw_k_g.f90:  $Revision$        

