

 Wavenumbers:   820. - 50000. cm-1, ATM      1
 LEVEL PRESSURE   UPWARD FLUX   DIFDOWN FLUX  DIRDOWN FLUX  DOWNWARD FLUX   NET FLUX    HEATING RATE
          mb          W/m2          W/m2          W/m2        W/m2          W/m2       degree/day
  59    0.1000      898.9363        0.0000     1360.8491     1360.8491     461.912796       0.00000
  58    0.1400      898.9373        0.0062     1360.7700     1360.7762     461.838878      15.59517
  57    0.1970      898.9392        0.0150     1360.6656     1360.6806     461.741341      14.44080
  56    0.2760      898.9430        0.0272     1360.4973     1360.5245     461.581577      17.06677
  55    0.3870      898.9501        0.0442     1360.2162     1360.2604     461.310342      20.62157
  54    0.5430      898.9634        0.0679     1359.7485     1359.8164     460.852974      24.74225
  53    0.7620      898.9873        0.1010     1359.0015     1359.1025     460.115217      28.42940
  52     1.070      899.0283        0.1452     1357.8888     1358.0340     459.005709      30.40032
  51     1.500      899.1055        0.2067     1356.1988     1356.4055     457.300002      33.47609
  50     2.100      899.2352        0.2909     1354.0972     1354.3881     455.152857      30.20012
  49     2.950      899.4392        0.4083     1351.8433     1352.2516     452.812449      23.23652
  48     4.130      899.7367        0.5721     1349.6358     1350.2079     450.471204      16.74416
  47     5.800      900.1495        0.8005     1347.4520     1348.2525     448.102979      11.96754
  46     8.130      900.7063        1.1195     1345.1751     1346.2946     445.588295       9.10806
  45     11.41      901.4386        1.5647     1342.7079     1344.2726     442.833942       7.08670
  44     16.01      902.3947        2.1848     1339.9281     1342.1129     439.718272       5.71600
  43     22.46      903.6841        3.0472     1336.6282     1339.6754     435.991300       4.87635
  42     31.51      905.4493        4.2445     1332.6189     1336.8634     431.414099       4.26825
  41     44.20      907.7608        5.9097     1327.8040     1333.7137     425.952948       3.63179
  40     62.00      910.5518        8.2255     1322.1310     1330.3565     419.804689       2.91495
  39     85.77      913.1173       11.3064     1316.0883     1327.3947     414.277383       1.96238
  38     109.5      914.9717       14.3778     1310.8699     1325.2477     410.275996       1.42063
  37     133.3      916.3789       17.4166     1306.1391     1323.5556     407.176737       1.09988
  36     157.1      917.4635       20.4477     1301.7285     1322.1762     404.712618       0.87448
  35     180.9      918.2822       23.4604     1297.5383     1320.9988     402.716580       0.70866
  34     204.7      918.9976       26.4369     1293.4065     1319.8434     400.845845       0.66389
  33     228.4      919.6793       29.3962     1289.2005     1318.5967     398.917392       0.68467
  32     252.2      920.3267       32.3270     1284.8824     1317.2094     396.882687       0.72208
  31     276.0      920.9193       35.2362     1280.5653     1315.8015     394.882215       0.71023
  30     299.8      921.4554       38.1203     1276.2839     1314.4042     392.948747       0.68616
  29     323.5      921.9251       40.9697     1272.1283     1313.0980     391.172895       0.63049
  28     347.3      922.3632       43.8194     1267.8782     1311.6975     389.334322       0.65275
  27     371.1      922.8030       46.6282     1263.0375     1309.6656     386.862586       0.87718
  26     394.9      923.2661       49.4118     1257.3469     1306.7586     383.492550       1.19597
  25     418.6      923.7461       52.1907     1251.3901     1303.5808     379.834700       1.29866
  24     442.4      924.2354       54.9137     1245.4620     1300.3757     376.140311       1.31163
  23     466.2      924.7580       57.6468     1239.3762     1297.0230     372.264955       1.37530
  22     489.9      925.3210       60.3386     1233.1568     1293.4954     368.174402       1.45167
  21     513.7      925.9334       62.9829     1226.8116     1289.7945     363.861110       1.53136
  20     537.5      926.6241       65.6458     1220.1629     1285.8087     359.184572       1.65963
  19     561.3      927.3933       68.2673     1213.3419     1281.6092     354.215876       1.76405
  18     585.0      928.2543       70.8399     1206.3658     1277.2056     348.951333       1.86909
  17     608.8      929.2398       73.4183     1199.1415     1272.5598     343.319970       1.99848
  16     632.6      930.3318       75.9750     1191.9457     1267.9207     337.588906       2.03386
  15     656.4      931.5386       78.5003     1184.8126     1263.3130     331.774361       2.06436
  14     680.1      932.8731       80.9882     1177.7612     1258.7494     325.876280       2.09402
  13     703.9      934.3501       83.4792     1170.7810     1254.2602     319.910070       2.11731
  12     727.7      935.9394       85.9370     1164.0452     1249.9823     314.042860       2.08218
  11     751.5      937.6614       88.3719     1157.4888     1245.8607     308.199333       2.07465
  10     775.2      939.5241       90.7750     1151.1183     1241.8933     302.369179       2.06903
   9     799.0      941.5599       93.1776     1144.8574     1238.0350     296.475099       2.09260
   8     822.8      943.7474       95.5509     1138.7985     1234.3494     290.602054       2.08425
   7     846.6      946.1120       97.9023     1132.9030     1230.8053     284.693259       2.09782
   6     870.4      948.6736      100.2279     1127.1604     1227.3883     278.714681       2.12170
   5     894.1      951.4562      102.5258     1121.5673     1224.0932     272.636970       2.15779
   4     917.9      954.4334      104.8220     1116.1582     1220.9802     266.546809       2.16221
   3     941.7      957.5799      107.0992     1110.9747     1218.0739     260.494039       2.14803
   2     965.5      960.9105      109.3605     1105.9959     1215.3564     254.445888       2.14639
   1     989.2      964.4714      111.6028     1101.1905     1212.7932     248.321891       2.17331
   0    1013.0      968.2978      113.8356     1096.5367     1210.3722     242.074448       2.21805

  Modules and versions used in this calculation:

       rrtmg_sw.1col.f90:  $Revision$                    rrtmg_sw_init.f90:  $Revision$        
     rrtmgsw_cldprop.f90:  $Revision$                  rrtmgsw_cldprmc.f90:  NOT USED          
     rrtmg_sw_reftra.f90:  $Revision$                  rrtmg_sw_spcvrt.f90:  NOT USED          
     rrtmg_sw_spcvmc.f90:  NOT USED                    rrtmgsw_setcoef.f90:  NOT USED          
     rrtmg_sw_taumol.f90:  $Revision$                  rrtmg_sw_vrtqdr.f90:  NOT USED          
                rrtatm.f:  NOT USED                             util_xxx.f:  NOT USED          
                 extra.f:  NOT USED                       rrtmg_sw_k_g.f90:  $Revision$        

